trials.label,trials.startVal,trials.stepSizes,trials.maxVal,trials.minVal,trials.thisIndex,trials.thisRepN,trials.thisN,trials.direction,trials.stepSize,trials.stepType,trials.intensity,ISI.started,polygon.started,grating.started,key_resp.started,grating.stopped,trials.response,key_resp.corr,key_reso.corr,polygon.stopped,participant,session,date,expName,psychopyVersion,frameRate,
cont,0.05,"[0.01, 0.01, 0.005, 0.005]",1,0,0,1,0,start,0.01,db,0.05,0.5151263000002473,15.459358399999928,16.03960559999996,16.03960559999996,16.342088200000035,0,0,,,583307,001,2022-09-09_10h43.02.303,STAIRCASE,2022.2.2,60.04141656910351,
cont,0.05,"[0.01, 0.01, 0.005, 0.005]",1,0,0,2,1,up,0.01,db,0.05005759777690845,0.001271699999961129,17.322668599999815,18.34199949999993,18.34199949999993,18.64199899999994,0,0,0,18.325579599999855,583307,001,2022-09-09_10h43.02.303,STAIRCASE,2022.2.2,60.04141656910351,
cont,0.05,"[0.01, 0.01, 0.005, 0.005]",1,0,0,3,2,up,0.01,db,0.050115261903894995,0.0012598999996953353,19.8557566999998,20.875434499999756,20.875434499999756,,1,1,0,20.858522399999856,583307,001,2022-09-09_10h43.02.303,STAIRCASE,2022.2.2,60.04141656910351,
cont,0.05,"[0.01, 0.01, 0.005, 0.005]",1,0,0,4,3,down,0.01,db,0.05005759777690845,0.001237800000126299,22.138874700000088,23.158753100000013,23.158753100000013,23.45858599999974,0,0,1,23.14195040000004,583307,001,2022-09-09_10h43.02.303,STAIRCASE,2022.2.2,60.04141656910351,
cont,0.05,"[0.01, 0.01, 0.005, 0.005]",1,0,0,5,4,up,0.005,db,0.050086421541866995,0.001438899999811838,24.474369600000045,25.492284599999948,25.492284599999948,25.791991799999778,1,1,0,25.475350799999887,583307,001,2022-09-09_10h43.02.303,STAIRCASE,2022.2.2,60.04141656910351,
cont,0.05,"[0.01, 0.01, 0.005, 0.005]",1,0,0,6,5,up,0.005,db,0.050086421541866995,0.0012980000001334702,26.889228999999887,27.90879959999984,27.90879959999984,28.208820099999684,1,1,,27.892004099999667,583307,001,2022-09-09_10h43.02.303,STAIRCASE,2022.2.2,60.04141656910351,
cont,0.05,"[0.01, 0.01, 0.005, 0.005]",1,0,0,7,6,up,0.005,db,0.050086421541866995,0.00143900000011854,32.54015419999996,33.559382299999925,33.559382299999925,33.85913769999979,0,0,,33.542182899999716,583307,001,2022-09-09_10h43.02.303,STAIRCASE,2022.2.2,60.04141656910351,
cont,0.05,"[0.01, 0.01, 0.005, 0.005]",1,0,0,8,7,up,0.005,db,0.05011526190389498,0.001252900000054069,34.97332800000004,35.99238689999993,35.99238689999993,36.292240299999776,0,0,0,35.975631899999826,583307,001,2022-09-09_10h43.02.303,STAIRCASE,2022.2.2,60.04141656910351,
cont,0.05,"[0.01, 0.01, 0.005, 0.005]",1,0,0,9,8,up,0.005,db,0.0501441188725492,0.0014922000000296975,37.472234599999865,38.49246919999996,38.49246919999996,38.7924095999997,0,0,0,38.4761282999998,583307,001,2022-09-09_10h43.02.303,STAIRCASE,2022.2.2,60.04141656910351,
cont,0.05,"[0.01, 0.01, 0.005, 0.005]",1,0,0,10,9,up,0.005,db,0.05017299245739195,0.0014326000000437489,42.34128049999981,43.35955299999978,43.35955299999978,43.65931759999967,1,1,,43.342521600000055,583307,001,2022-09-09_10h43.02.303,STAIRCASE,2022.2.2,60.04141656910351,
cont,0.05,"[0.01, 0.01, 0.005, 0.005]",1,0,0,11,10,up,0.005,db,0.05017299245739195,0.00144079999972746,44.7565811999998,45.77649539999993,45.77649539999993,,1,1,1,45.75939990000006,583307,001,2022-09-09_10h43.02.303,STAIRCASE,2022.2.2,60.04141656910351,
cont,0.05,"[0.01, 0.01, 0.005, 0.005]",1,0,0,12,11,up,0.005,db,0.05017299245739195,0.0015109000000848027,47.04101119999996,48.05928039999981,48.05928039999981,,0,0,1,48.042281900000035,583307,001,2022-09-09_10h43.02.303,STAIRCASE,2022.2.2,60.04141656910351,
cont,0.05,"[0.01, 0.01, 0.005, 0.005]",1,0,0,13,12,up,0.005,db,0.05020188266799103,0.0014371000002029177,49.30763829999978,50.32628539999996,50.32628539999996,,0,0,,50.309283199999754,583307,001,2022-09-09_10h43.02.303,STAIRCASE,2022.2.2,60.04141656910351,
cont,0.05,"[0.01, 0.01, 0.005, 0.005]",1,0,0,14,13,up,0.005,db,0.050230789513919745,0.0005638000002363697,51.53736939999999,52.54286499999989,52.54286499999989,52.842513600000075,0,0,0,52.54286499999989,583307,001,2022-09-09_10h43.02.303,STAIRCASE,2022.2.2,60.04141656910351,
cont,0.05,"[0.01, 0.01, 0.005, 0.005]",1,0,0,15,14,up,0.005,db,0.05025971300475692,0.0012566999998853134,53.9058700999999,54.92641249999997,54.92641249999997,55.22602280000001,1,1,,54.90920099999994,583307,001,2022-09-09_10h43.02.303,STAIRCASE,2022.2.2,60.04141656910351,
cont,0.05,"[0.01, 0.01, 0.005, 0.005]",1,0,0,16,15,up,0.005,db,0.05025971300475692,0.0012820000001738663,56.207309299999906,57.226314399999865,57.226314399999865,57.526275799999894,1,1,1,57.20945260000008,583307,001,2022-09-09_10h43.02.303,STAIRCASE,2022.2.2,60.04141656910351,
cont,0.05,"[0.01, 0.01, 0.005, 0.005]",1,0,0,17,16,up,0.005,db,0.05025971300475692,0.0012828000003537454,58.8892751999997,59.909549999999854,59.909549999999854,60.20962449999979,0,0,,59.89287519999971,583307,001,2022-09-09_10h43.02.303,STAIRCASE,2022.2.2,60.04141656910351,
cont,0.05,"[0.01, 0.01, 0.005, 0.005]",1,0,0,18,17,up,0.005,db,0.0502886531500869,0.0013129999997545383,61.290441199999805,62.309623499999816,62.309623499999816,62.60947869999973,1,1,0,62.29295430000002,583307,001,2022-09-09_10h43.02.303,STAIRCASE,2022.2.2,60.04141656910351,
cont,0.05,"[0.01, 0.01, 0.005, 0.005]",1,0,0,19,18,up,0.005,db,0.0502886531500869,0.0015271000002030632,63.59116809999978,64.61009879999983,64.61009879999983,,1,1,,64.59298510000008,583307,001,2022-09-09_10h43.02.303,STAIRCASE,2022.2.2,60.04141656910351,
cont,0.05,"[0.01, 0.01, 0.005, 0.005]",1,0,0,20,19,up,0.005,db,0.0502886531500869,0.0014429999996536935,65.65855909999982,66.67642479999995,66.67642479999995,,1,1,1,66.6595543999997,583307,001,2022-09-09_10h43.02.303,STAIRCASE,2022.2.2,60.04141656910351,
cont,0.05,"[0.01, 0.01, 0.005, 0.005]",1,0,0,21,20,down,0.005,db,0.05025971300475692,0.0012682999999924505,67.68984339999997,68.71016060000011,68.71016060000011,,1,1,1,68.69302319999997,583307,001,2022-09-09_10h43.02.303,STAIRCASE,2022.2.2,60.04141656910351,
cont,0.05,"[0.01, 0.01, 0.005, 0.005]",1,0,0,22,21,down,0.005,db,0.05025971300475692,0.0015895999999884225,69.9085554999997,70.92660429999978,70.92660429999978,,1,1,,70.9098482999998,583307,001,2022-09-09_10h43.02.303,STAIRCASE,2022.2.2,60.04141656910351,
cont,0.05,"[0.01, 0.01, 0.005, 0.005]",1,0,0,23,22,down,0.005,db,0.05025971300475692,0.001443599999674916,72.02368299999989,73.0433339000001,73.0433339000001,73.34315639999977,1,1,,73.02627570000004,583307,001,2022-09-09_10h43.02.303,STAIRCASE,2022.2.2,60.04141656910351,
cont,0.05,"[0.01, 0.01, 0.005, 0.005]",1,0,0,24,23,down,0.005,db,0.050230789513919745,0.0014575000000149885,83.92389129999992,84.94335999999976,84.94335999999976,85.2431173,0,0,,84.92676699999993,583307,001,2022-09-09_10h43.02.303,STAIRCASE,2022.2.2,60.04141656910351,
cont,0.05,"[0.01, 0.01, 0.005, 0.005]",1,0,0,25,24,up,0.005,db,0.05025971300475692,0.0015149999999266583,87.6234701999997,88.64335089999986,88.64335089999986,88.94350739999982,1,1,0,88.6266456999997,583307,001,2022-09-09_10h43.02.303,STAIRCASE,2022.2.2,60.04141656910351,
cont,0.05,"[0.01, 0.01, 0.005, 0.005]",1,0,0,26,25,up,0.005,db,0.05025971300475692,0.0015327999999499298,93.75882569999976,94.77703659999997,94.77703659999997,95.07693620000009,1,1,,94.760178,583307,001,2022-09-09_10h43.02.303,STAIRCASE,2022.2.2,60.04141656910351,
cont,0.05,"[0.01, 0.01, 0.005, 0.005]",1,0,0,27,26,up,0.005,db,0.05025971300475692,0.0016418000000157917,104.52524989999984,105.54397449999988,105.54397449999988,105.84393640000008,0,0,,105.52717350000012,583307,001,2022-09-09_10h43.02.303,STAIRCASE,2022.2.2,60.04141656910351,
cont,0.05,"[0.01, 0.01, 0.005, 0.005]",1,0,0,28,27,up,0.005,db,0.0502886531500869,0.001548700000057579,111.5755624999997,112.5944086999998,112.5944086999998,112.89413220000006,1,1,0,112.5772807999997,583307,001,2022-09-09_10h43.02.303,STAIRCASE,2022.2.2,60.04141656910351,
cont,0.05,"[0.01, 0.01, 0.005, 0.005]",1,0,0,29,28,up,0.005,db,0.0502886531500869,0.0012673999999606167,114.64034829999991,115.66096489999973,115.66096489999973,115.9605346999997,1,1,1,115.64365580000003,583307,001,2022-09-09_10h43.02.303,STAIRCASE,2022.2.2,60.04141656910351,
cont,0.05,"[0.01, 0.01, 0.005, 0.005]",1,0,0,30,29,up,0.005,db,0.0502886531500869,0.0012861000000157219,117.42359390000001,118.44418779999978,118.44418779999978,118.74412759999996,0,0,,118.42721369999981,583307,001,2022-09-09_10h43.02.303,STAIRCASE,2022.2.2,60.04141656910351,
cont,0.05,"[0.01, 0.01, 0.005, 0.005]",1,0,0,31,30,up,0.005,db,0.05031760995949953,0.0014622999997300212,120.09182129999999,121.11134080000011,121.11134080000011,121.41087870000001,0,0,,121.09413649999988,583307,001,2022-09-09_10h43.02.303,STAIRCASE,2022.2.2,60.04141656910351,
cont,0.05,"[0.01, 0.01, 0.005, 0.005]",1,0,0,32,31,up,0.005,db,0.050346583442590194,0.0012331000002632209,122.6083752999998,123.62770189999992,123.62770189999992,123.92764129999978,1,1,,123.61106849999987,583307,001,2022-09-09_10h43.02.303,STAIRCASE,2022.2.2,60.04141656910351,
cont,0.05,"[0.01, 0.01, 0.005, 0.005]",1,0,0,33,32,up,0.005,db,0.050346583442590194,0.0014925000000403088,125.19208939999999,126.2109889999997,126.2109889999997,126.51099859999977,0,0,1,126.1941981,583307,001,2022-09-09_10h43.02.303,STAIRCASE,2022.2.2,60.04141656910351,
cont,0.05,"[0.01, 0.01, 0.005, 0.005]",1,0,0,34,33,up,0.005,db,0.05037557360895979,0.0014661999998679676,127.72447139999986,128.7448188999997,128.7448188999997,129.04432689999976,1,1,0,128.72770839999976,583307,001,2022-09-09_10h43.02.303,STAIRCASE,2022.2.2,60.04141656910351,
cont,0.05,"[0.01, 0.01, 0.005, 0.005]",1,0,0,35,34,up,0.005,db,0.05037557360895979,0.0014636000000791682,130.25812909999968,131.27804340000012,131.27804340000012,131.57799939999995,0,0,1,131.26103029999967,583307,001,2022-09-09_10h43.02.303,STAIRCASE,2022.2.2,60.04141656910351,
cont,0.05,"[0.01, 0.01, 0.005, 0.005]",1,0,0,36,35,up,0.005,db,0.05040458046821476,0.001298799999858602,133.0411525999998,134.06112499999972,134.06112499999972,134.3610918999998,1,1,0,134.0444709999997,583307,001,2022-09-09_10h43.02.303,STAIRCASE,2022.2.2,60.04141656910351,
cont,0.05,"[0.01, 0.01, 0.005, 0.005]",1,0,0,37,36,up,0.005,db,0.05040458046821476,0.0007454000001416716,135.5549264000001,136.57825719999983,136.57825719999983,136.87774549999995,0,0,1,136.56097169999975,583307,001,2022-09-09_10h43.02.303,STAIRCASE,2022.2.2,60.04141656910351,
cont,0.05,"[0.01, 0.01, 0.005, 0.005]",1,0,0,38,37,up,0.005,db,0.050433604029967063,0.0015132999997149454,138.05921779999971,139.07785539999986,139.07785539999986,139.3778714,0,0,,139.06107819999988,583307,001,2022-09-09_10h43.02.303,STAIRCASE,2022.2.2,60.04141656910351,
cont,0.05,"[0.01, 0.01, 0.005, 0.005]",1,0,0,39,38,up,0.005,db,0.050462644303834195,0.0014375999999174383,140.44276050000008,141.4613107,141.4613107,141.7611750000001,1,1,,141.44445159999987,583307,001,2022-09-09_10h43.02.303,STAIRCASE,2022.2.2,60.04141656910351,
cont,0.05,"[0.01, 0.01, 0.005, 0.005]",1,0,0,40,39,up,0.005,db,0.050462644303834195,0.0012848000001213222,142.7751586999998,143.7948038999998,143.7948038999998,144.0948742999999,0,0,1,143.77795930000002,583307,001,2022-09-09_10h43.02.303,STAIRCASE,2022.2.2,60.04141656910351,
cont,0.05,"[0.01, 0.01, 0.005, 0.005]",1,0,0,41,40,up,0.005,db,0.050491701299439196,0.0012481000003390363,145.59118949999993,146.61141229999976,146.61141229999976,146.91132519999974,1,1,,146.59473909999997,583307,001,2022-09-09_10h43.02.303,STAIRCASE,2022.2.2,60.04141656910351,
cont,0.05,"[0.01, 0.01, 0.005, 0.005]",1,0,0,42,41,up,0.005,db,0.050491701299439196,0.0014847000002191635,148.04247369999985,149.0614999999998,149.0614999999998,149.3614192,0,0,1,149.0445983999998,583307,001,2022-09-09_10h43.02.303,STAIRCASE,2022.2.2,60.04141656910351,
cont,0.05,"[0.01, 0.01, 0.005, 0.005]",1,0,0,43,42,up,0.005,db,0.05052077502641064,0.0015045000000100117,150.52654159999975,151.54469870000003,151.54469870000003,151.84503349999977,0,0,0,151.52788529999998,583307,001,2022-09-09_10h43.02.303,STAIRCASE,2022.2.2,60.04141656910351,
cont,0.05,"[0.01, 0.01, 0.005, 0.005]",1,0,0,44,43,up,0.005,db,0.05054986549438265,0.0012710000000879518,152.89191260000007,153.91148410000005,153.91148410000005,154.21159850000004,1,1,0,153.89441069999975,583307,001,2022-09-09_10h43.02.303,STAIRCASE,2022.2.2,60.04141656910351,
cont,0.05,"[0.01, 0.01, 0.005, 0.005]",1,0,0,45,44,up,0.005,db,0.05054986549438265,0.0012965999999323685,155.42499879999968,156.44536169999992,156.44536169999992,156.74495339999976,1,1,,156.42775149999989,583307,001,2022-09-09_10h43.02.303,STAIRCASE,2022.2.2,60.04141656910351,
cont,0.05,"[0.01, 0.01, 0.005, 0.005]",1,0,0,46,45,up,0.005,db,0.05054986549438265,0.0015863999997236533,158.19227739999997,159.2119385000001,159.2119385000001,159.51160419999997,1,1,,159.19506159999992,583307,001,2022-09-09_10h43.02.303,STAIRCASE,2022.2.2,60.04141656910351,
cont,0.05,"[0.01, 0.01, 0.005, 0.005]",1,0,0,47,46,down,0.005,db,0.05052077502641064,0.001320800000030431,160.65938779999988,161.67848219999996,161.67848219999996,161.97851050000008,0,0,1,161.6615922000001,583307,001,2022-09-09_10h43.02.303,STAIRCASE,2022.2.2,60.04141656910351,
cont,0.05,"[0.01, 0.01, 0.005, 0.005]",1,0,0,48,47,up,0.005,db,0.05054986549438265,0.0014880999997330946,163.04364369999985,164.0620739000001,164.0620739000001,,0,0,0,164.04519429999982,583307,001,2022-09-09_10h43.02.303,STAIRCASE,2022.2.2,60.04141656910351,
cont,0.05,"[0.01, 0.01, 0.005, 0.005]",1,0,0,49,48,up,0.005,db,0.0505789727129949,0.0012836999999308318,165.27611989999969,166.29511809999985,166.29511809999985,166.59531919999972,1,1,,166.27810359999967,583307,001,2022-09-09_10h43.02.303,STAIRCASE,2022.2.2,60.04141656910351,
cont,0.05,"[0.01, 0.01, 0.005, 0.005]",1,0,0,50,49,up,0.005,db,0.0505789727129949,0.001478500000303029,168.9263573999997,169.94525750000003,169.94525750000003,,0,0,1,169.92831279999973,583307,001,2022-09-09_10h43.02.303,STAIRCASE,2022.2.2,60.04141656910351,
cont,0.05,"[0.01, 0.01, 0.005, 0.005]",1,0,0,51,50,up,0.005,db,0.0506080966918926,0.0006573999999091029,171.1742403999997,172.1953857999997,172.1953857999997,172.49502540000003,1,1,0,172.17894099999967,583307,001,2022-09-09_10h43.02.303,STAIRCASE,2022.2.2,60.04141656910351,
cont,0.05,"[0.01, 0.01, 0.005, 0.005]",1,0,0,52,51,up,0.005,db,0.0506080966918926,0.0014842999999018502,180.27519919999986,181.2958966000001,181.2958966000001,181.59560699999975,1,1,1,181.2787933999998,583307,001,2022-09-09_10h43.02.303,STAIRCASE,2022.2.2,60.04141656910351,
cont,0.05,"[0.01, 0.01, 0.005, 0.005]",1,0,0,53,52,up,0.005,db,0.0506080966918926,0.0014459000003625988,182.7593879000001,183.77902109999968,183.77902109999968,184.0788480000001,1,1,,183.76220130000002,583307,001,2022-09-09_10h43.02.303,STAIRCASE,2022.2.2,60.04141656910351,
cont,0.05,"[0.01, 0.01, 0.005, 0.005]",1,0,0,54,53,down,0.005,db,0.0505789727129949,0.0014415000000553846,185.14150139999992,186.16220829999975,186.16220829999975,186.46222379999972,0,0,,186.14531570000008,583307,001,2022-09-09_10h43.02.303,STAIRCASE,2022.2.2,60.04141656910351,
cont,0.05,"[0.01, 0.01, 0.005, 0.005]",1,0,0,55,54,up,0.005,db,0.0506080966918926,0.0012393999995765625,187.57604139999967,188.59576819999984,188.59576819999984,188.8958087000001,0,0,0,188.57879509999975,583307,001,2022-09-09_10h43.02.303,STAIRCASE,2022.2.2,60.04141656910351,
cont,0.05,"[0.01, 0.01, 0.005, 0.005]",1,0,0,56,55,up,0.005,db,0.05063723744072652,0.001478900000165595,190.94472499999983,191.96253939999997,191.96253939999997,192.26234189999968,0,0,,191.94568230000004,583307,001,2022-09-09_10h43.02.303,STAIRCASE,2022.2.2,60.04141656910351,
cont,0.05,"[0.01, 0.01, 0.005, 0.005]",1,0,0,57,56,up,0.005,db,0.050666394969153004,0.0014556000000993663,193.61055129999977,194.62913660000004,194.62913660000004,194.9290989000001,1,1,0,194.61220909999975,583307,001,2022-09-09_10h43.02.303,STAIRCASE,2022.2.2,60.04141656910351,
cont,0.05,"[0.01, 0.01, 0.005, 0.005]",1,0,0,58,57,up,0.005,db,0.050666394969153004,0.0014592000002267014,196.07780520000006,197.0957499000001,197.0957499000001,197.39575319999994,0,0,1,197.07864299999983,583307,001,2022-09-09_10h43.02.303,STAIRCASE,2022.2.2,60.04141656910351,
cont,0.05,"[0.01, 0.01, 0.005, 0.005]",1,0,0,59,58,up,0.005,db,0.050695569286833934,0.0015005000000201107,198.51123479999978,199.52916049999976,199.52916049999976,199.82925549999982,0,0,,199.51205840000011,583307,001,2022-09-09_10h43.02.303,STAIRCASE,2022.2.2,60.04141656910351,
cont,0.05,"[0.01, 0.01, 0.005, 0.005]",1,0,0,60,59,up,0.005,db,0.050724760403436764,0.0014762000000700937,200.9613135999998,201.97924459999967,201.97924459999967,202.2792357999997,0,0,,201.96233729999994,583307,001,2022-09-09_10h43.02.303,STAIRCASE,2022.2.2,60.04141656910351,
cont,0.05,"[0.01, 0.01, 0.005, 0.005]",1,0,0,61,60,up,0.005,db,0.05075396832863452,0.0014944999998078856,203.44304969999985,204.46268809999992,204.46268809999992,204.76285169999983,0,0,0,204.44572160000007,583307,001,2022-09-09_10h43.02.303,STAIRCASE,2022.2.2,60.04141656910351,
cont,0.05,"[0.01, 0.01, 0.005, 0.005]",1,0,0,62,61,up,0.005,db,0.05078319307210579,0.0015653000000384054,205.9091613999999,206.92907139999988,206.92907139999988,207.22940229999995,1,1,,206.91218200000003,583307,001,2022-09-09_10h43.02.303,STAIRCASE,2022.2.2,60.04141656910351,
cont,0.05,"[0.01, 0.01, 0.005, 0.005]",1,0,0,63,62,up,0.005,db,0.05078319307210579,0.0013094999999339052,208.3098471999997,209.32934780000005,209.32934780000005,209.6294783999997,0,0,1,209.3125058999999,583307,001,2022-09-09_10h43.02.303,STAIRCASE,2022.2.2,60.04141656910351,
cont,0.05,"[0.01, 0.01, 0.005, 0.005]",1,0,0,64,63,up,0.005,db,0.050812434643534736,0.0012353999995866616,210.6766146,211.69606329999988,211.69606329999988,211.9960971999999,0,0,,211.6793235,583307,001,2022-09-09_10h43.02.303,STAIRCASE,2022.2.2,60.04141656910351,
cont,0.05,"[0.01, 0.01, 0.005, 0.005]",1,0,0,65,64,up,0.005,db,0.050841693052611096,0.001506299999618932,213.22570689999975,214.24626790000002,214.24626790000002,214.54630039999984,1,1,0,214.22920780000004,583307,001,2022-09-09_10h43.02.303,STAIRCASE,2022.2.2,60.04141656910351,
cont,0.05,"[0.01, 0.01, 0.005, 0.005]",1,0,0,66,65,up,0.005,db,0.050841693052611096,0.001483600000028673,215.64442299999973,216.66294199999993,216.66294199999993,216.96293530000003,0,0,1,216.6461951000001,583307,001,2022-09-09_10h43.02.303,STAIRCASE,2022.2.2,60.04141656910351,
cont,0.05,"[0.01, 0.01, 0.005, 0.005]",1,0,0,67,66,up,0.005,db,0.05087096830903019,0.0015283000002455083,218.11142560000008,219.12970360000008,219.12970360000008,219.42967210000006,0,0,0,219.11262420000003,583307,001,2022-09-09_10h43.02.303,STAIRCASE,2022.2.2,60.04141656910351,
cont,0.05,"[0.01, 0.01, 0.005, 0.005]",1,0,0,68,67,up,0.005,db,0.050900260422492925,0.0012277000000722182,220.49270320000005,221.51310740000008,221.51310740000008,221.81289960000004,1,1,,221.4961847999998,583307,001,2022-09-09_10h43.02.303,STAIRCASE,2022.2.2,60.04141656910351,
cont,0.05,"[0.01, 0.01, 0.005, 0.005]",1,0,0,69,68,up,0.005,db,0.050900260422492925,0.0015189000000646047,222.99451659999977,224.01286729999993,224.01286729999993,224.31341599999996,0,0,1,223.99615649999987,583307,001,2022-09-09_10h43.02.303,STAIRCASE,2022.2.2,60.04141656910351,
cont,0.05,"[0.01, 0.01, 0.005, 0.005]",1,0,0,70,69,up,0.005,db,0.050929569402705786,0.0014274000000114029,225.31186709999974,226.3298550999998,226.3298550999998,226.63001529999974,0,0,,226.31290850000005,583307,001,2022-09-09_10h43.02.303,STAIRCASE,2022.2.2,60.04141656910351,
cont,0.05,"[0.01, 0.01, 0.005, 0.005]",1,0,0,71,70,up,0.005,db,0.05095889525938085,0.0012384000001475215,227.7101878999997,228.72988429999987,228.72988429999987,229.0293769,1,1,,228.71302289999994,583307,001,2022-09-09_10h43.02.303,STAIRCASE,2022.2.2,60.04141656910351,
cont,0.05,"[0.01, 0.01, 0.005, 0.005]",1,0,0,72,71,up,0.005,db,0.05095889525938085,0.0007506000001740176,230.02489119999973,231.0467891999997,231.0467891999997,231.34638859999995,0,0,,231.02981610000006,583307,001,2022-09-09_10h43.02.303,STAIRCASE,2022.2.2,60.04141656910351,
cont,0.05,"[0.01, 0.01, 0.005, 0.005]",1,0,0,73,72,up,0.005,db,0.05098823800223578,0.0012403999999150983,232.49305520000007,233.51320559999976,233.51320559999976,233.81366929999967,1,1,0,233.4964845999998,583307,001,2022-09-09_10h43.02.303,STAIRCASE,2022.2.2,60.04141656910351,
cont,0.05,"[0.01, 0.01, 0.005, 0.005]",1,0,0,74,73,up,0.005,db,0.05098823800223578,0.0012787000000571425,234.82774569999992,235.84668539999984,235.84668539999984,236.14651839999988,1,1,1,235.8297889999999,583307,001,2022-09-09_10h43.02.303,STAIRCASE,2022.2.2,60.04141656910351,
cont,0.05,"[0.01, 0.01, 0.005, 0.005]",1,0,0,75,74,up,0.005,db,0.05098823800223578,0.0014700000001539593,237.26294899999994,238.2801918,238.2801918,238.58015690000002,0,0,1,238.2633192999997,583307,001,2022-09-09_10h43.02.303,STAIRCASE,2022.2.2,60.04141656910351,
cont,0.05,"[0.01, 0.01, 0.005, 0.005]",1,0,0,76,75,up,0.005,db,0.05101759764099385,0.0014615000000048894,239.7440406999999,240.76340549999986,240.76340549999986,241.0635256999999,0,0,,240.7466690000001,583307,001,2022-09-09_10h43.02.303,STAIRCASE,2022.2.2,60.04141656910351,
cont,0.05,"[0.01, 0.01, 0.005, 0.005]",1,0,0,77,76,up,0.005,db,0.051046974185383925,0.0012257999997018487,242.1455388999998,243.16353720000006,243.16353720000006,243.46351719999984,0,0,,243.14660709999998,583307,001,2022-09-09_10h43.02.303,STAIRCASE,2022.2.2,60.04141656910351,
cont,0.05,"[0.01, 0.01, 0.005, 0.005]",1,0,0,78,77,up,0.005,db,0.051076367645140466,0.0014583000001948676,244.52715639999997,245.54701209999985,245.54701209999985,245.84678989999975,0,0,0,245.52999409999984,583307,001,2022-09-09_10h43.02.303,STAIRCASE,2022.2.2,60.04141656910351,
cont,0.05,"[0.01, 0.01, 0.005, 0.005]",1,0,0,79,78,up,0.005,db,0.05110577803000354,0.0012704000000667293,246.96806239999978,247.9800037,247.9800037,248.2798531999997,0,0,,247.9800037,583307,001,2022-09-09_10h43.02.303,STAIRCASE,2022.2.2,60.04141656910351,
cont,0.05,"[0.01, 0.01, 0.005, 0.005]",1,0,0,80,79,up,0.005,db,0.051135205349718826,0.0007500000001527951,249.32626949999985,250.34701670000004,250.34701670000004,250.64662670000007,0,0,,250.33035579999978,583307,001,2022-09-09_10h43.02.303,STAIRCASE,2022.2.2,60.04141656910351,
cont,0.05,"[0.01, 0.01, 0.005, 0.005]",1,0,0,81,80,up,0.005,db,0.051164649614037626,0.0007834000002731045,251.62428610000006,252.63047340000003,252.63047340000003,,0,0,0,252.63047340000003,583307,001,2022-09-09_10h43.02.303,STAIRCASE,2022.2.2,60.04141656910351,
cont,0.05,"[0.01, 0.01, 0.005, 0.005]",1,0,0,82,81,up,0.005,db,0.051194110832716834,0.0015032999999675667,253.74609689999988,254.76391609999973,254.76391609999973,255.0639317,1,1,0,254.7471201999997,583307,001,2022-09-09_10h43.02.303,STAIRCASE,2022.2.2,60.04141656910351,
cont,0.05,"[0.01, 0.01, 0.005, 0.005]",1,0,0,83,82,up,0.005,db,0.051194110832716834,0.0014406000000235508,256.22709929999974,257.2471765,257.2471765,257.54727980000007,0,0,,257.2302657,583307,001,2022-09-09_10h43.02.303,STAIRCASE,2022.2.2,60.04141656910351,
cont,0.05,"[0.01, 0.01, 0.005, 0.005]",1,0,0,84,83,up,0.005,db,0.05122358901551898,0.0012317999999140739,258.5782479999998,259.5975628000001,259.5975628000001,259.8973734000001,1,1,,259.58035040000004,583307,001,2022-09-09_10h43.02.303,STAIRCASE,2022.2.2,60.04141656910351,
cont,0.05,"[0.01, 0.01, 0.005, 0.005]",1,0,0,85,84,up,0.005,db,0.05122358901551898,0.0014515000002575107,261.0451026999999,262.0643031999998,262.0643031999998,262.36387939999986,0,0,,262.0471660999997,583307,001,2022-09-09_10h43.02.303,STAIRCASE,2022.2.2,60.04141656910351,
cont,0.05,"[0.01, 0.01, 0.005, 0.005]",1,0,0,86,85,up,0.005,db,0.05125308417221221,0.0015118999999685911,263.3449934,264.3638891999999,264.3638891999999,264.6639231999998,1,1,,264.34691109999994,583307,001,2022-09-09_10h43.02.303,STAIRCASE,2022.2.2,60.04141656910351,
cont,0.05,"[0.01, 0.01, 0.005, 0.005]",1,0,0,87,86,up,0.005,db,0.05125308417221221,0.0012826000001950888,265.6947746000001,266.7140592999999,266.7140592999999,267.01389889999973,0,0,,266.6970769999998,583307,001,2022-09-09_10h43.02.303,STAIRCASE,2022.2.2,60.04141656910351,
cont,0.05,"[0.01, 0.01, 0.005, 0.005]",1,0,0,88,87,up,0.005,db,0.05128259631257029,0.0012191000000711938,267.9940375000001,269.0142065,269.0142065,269.31412649999993,1,1,,268.99725820000003,583307,001,2022-09-09_10h43.02.303,STAIRCASE,2022.2.2,60.04141656910351,
cont,0.05,"[0.01, 0.01, 0.005, 0.005]",1,0,0,89,88,up,0.005,db,0.05128259631257029,0.001346800000192161,270.3294238999997,271.34779609999987,271.34779609999987,271.6474926000001,0,0,,271.33075009999993,583307,001,2022-09-09_10h43.02.303,STAIRCASE,2022.2.2,60.04141656910351,
cont,0.05,"[0.01, 0.01, 0.005, 0.005]",1,0,0,90,89,up,0.005,db,0.05131212544637262,0.0007413999996970233,272.6248989999999,273.6308921,273.6308921,273.93061929999976,1,1,0,273.6308921,583307,001,2022-09-09_10h43.02.303,STAIRCASE,2022.2.2,60.04141656910351,
cont,0.05,"[0.01, 0.01, 0.005, 0.005]",1,0,0,91,90,up,0.005,db,0.05131212544637262,0.0012639000001399836,275.09394889999976,276.11440360000006,276.11440360000006,276.4141457999999,1,1,1,276.09753180000007,583307,001,2022-09-09_10h43.02.303,STAIRCASE,2022.2.2,60.04141656910351,
cont,0.05,"[0.01, 0.01, 0.005, 0.005]",1,0,0,92,91,up,0.005,db,0.05131212544637262,0.0006647000000157277,277.4262171999999,278.44775249999975,278.44775249999975,278.7474023,0,0,1,278.4307407000001,583307,001,2022-09-09_10h43.02.303,STAIRCASE,2022.2.2,60.04141656910351,
cont,0.05,"[0.01, 0.01, 0.005, 0.005]",1,0,0,93,92,up,0.005,db,0.051341671583404226,0.0005725000000893488,279.7912978999998,280.8143520999997,280.8143520999997,281.1141474000001,1,1,,280.79773539999997,583307,001,2022-09-09_10h43.02.303,STAIRCASE,2022.2.2,60.04141656910351,
cont,0.05,"[0.01, 0.01, 0.005, 0.005]",1,0,0,94,93,up,0.005,db,0.051341671583404226,0.0012836000000788772,282.2782637,283.29775500000005,283.29775500000005,283.5974986000001,0,0,1,283.28114749999986,583307,001,2022-09-09_10h43.02.303,STAIRCASE,2022.2.2,60.04141656910351,
cont,0.05,"[0.01, 0.01, 0.005, 0.005]",1,0,0,95,94,up,0.005,db,0.05137123473345578,0.001262499999938882,284.62720339999987,285.64783020000004,285.64783020000004,285.9475617999997,1,1,0,285.6310758999998,583307,001,2022-09-09_10h43.02.303,STAIRCASE,2022.2.2,60.04141656910351,
cont,0.05,"[0.01, 0.01, 0.005, 0.005]",1,0,0,96,95,up,0.005,db,0.05137123473345578,0.0013462000001709384,287.12681380000004,288.1479101,288.1479101,288.44758279999996,0,0,1,288.13107279999986,583307,001,2022-09-09_10h43.02.303,STAIRCASE,2022.2.2,60.04141656910351,
cont,0.05,"[0.01, 0.01, 0.005, 0.005]",1,0,0,97,96,up,0.005,db,0.051400814906323575,0.001294400000006135,289.4605080000001,290.48120470000003,290.48120470000003,,0,0,,290.4644946999997,583307,001,2022-09-09_10h43.02.303,STAIRCASE,2022.2.2,60.04141656910351,
cont,0.05,"[0.01, 0.01, 0.005, 0.005]",1,0,0,98,97,up,0.005,db,0.051430412111809556,0.000680600000123377,291.64226439999993,292.66463729999987,292.66463729999987,292.96461839999984,1,1,0,292.64814780000006,583307,001,2022-09-09_10h43.02.303,STAIRCASE,2022.2.2,60.04141656910351,
cont,0.05,"[0.01, 0.01, 0.005, 0.005]",1,0,0,99,98,up,0.005,db,0.051430412111809556,0.0015140999998948246,294.1120774000001,295.13136429999986,295.13136429999986,295.43137739999975,1,1,,295.1146226000001,583307,001,2022-09-09_10h43.02.303,STAIRCASE,2022.2.2,60.04141656910351,
cont,0.05,"[0.01, 0.01, 0.005, 0.005]",1,0,0,100,99,up,0.005,db,0.051430412111809556,0.001272799999696872,296.5447076999999,297.56460590000006,297.56460590000006,297.86471429999983,0,0,,297.5479631999997,583307,001,2022-09-09_10h43.02.303,STAIRCASE,2022.2.2,60.04141656910351,
